{
    "resourceType": "CarePlan",
    "id": "f003",
    "text": {
        "status": "generated",
        "div": "<div xmlns=\"http://www.w3.org/1999/xhtml\"><p><b>Generated Narrative</b></p><div style=\"display: inline-block; background-color: #d9e0e7; padding: 6px; margin: 4px; border: 1px solid #8da1b4; border-radius: 5px; line-height: 60%\"><p style=\"margin-bottom: 0px\">Resource &quot;f003&quot; </p></div><p><b>identifier</b>: id: CP3953 (OFFICIAL)</p><p><b>status</b>: completed</p><p><b>intent</b>: plan</p><p><b>subject</b>: <a href=\"patient-f001.html\">Patient/f001: P. van de Heuvel</a> &quot;Pieter VAN DE HEUVEL&quot;</p><p><b>period</b>: 2013-03-08T09:00:10+01:00 --&gt; 2013-03-08T09:30:10+01:00</p><p><b>careTeam</b>: <a name=\"careteam\"> </a></p><blockquote><div style=\"display: inline-block; background-color: #d9e0e7; padding: 6px; margin: 4px; border: 1px solid #8da1b4; border-radius: 5px; line-height: 60%\"><p style=\"margin-bottom: 0px\">Resource &quot;careteam&quot; </p></div><h3>Participants</h3><table class=\"grid\"><tr><td>-</td><td><b>Member</b></td></tr><tr><td>*</td><td><a href=\"practitioner-f001.html\">Practitioner/f001: E.M. van den broek</a> &quot;Eric VAN DEN BROEK&quot;</td></tr></table></blockquote><p><b>addresses</b>: <a href=\"condition-f201.html\">Condition/f201: ?????</a></p><p><b>goal</b>: <a name=\"goal\"> </a></p><blockquote><div style=\"display: inline-block; background-color: #d9e0e7; padding: 6px; margin: 4px; border: 1px solid #8da1b4; border-radius: 5px; line-height: 60%\"><p style=\"margin-bottom: 0px\">Resource &quot;goal&quot; </p></div><p><b>lifecycleStatus</b>: completed</p><p><b>achievementStatus</b>: Achieved <span style=\"background: LightGoldenRodYellow; margin: 4px; border: 1px solid khaki\"> (<a href=\"codesystem-goal-achievement.html\">GoalAchievementStatus</a>#achieved)</span></p><p><b>description</b>: Retropharyngeal abscess removal <span style=\"background: LightGoldenRodYellow; margin: 4px; border: 1px solid khaki\"> ()</span></p><p><b>subject</b>: <a href=\"patient-f001.html\">Patient/f001: P. van de Heuvel</a> &quot;Pieter VAN DE HEUVEL&quot;</p><p><b>note</b>: goal accomplished without complications</p></blockquote><blockquote><p><b>activity</b></p><h3>Details</h3><table class=\"grid\"><tr><td>-</td><td><b>Kind</b></td><td><b>Code</b></td><td><b>Status</b></td><td><b>DoNotPerform</b></td><td><b>Scheduled[x]</b></td><td><b>Performer</b></td></tr><tr><td>*</td><td>ServiceRequest</td><td>Incision of retropharyngeal abscess <span style=\"background: LightGoldenRodYellow; margin: 4px; border: 1px solid khaki\"> (<a href=\"https://browser.ihtsdotools.org/\">SNOMED CT</a>#172960003)</span></td><td>completed</td><td>true</td><td>2011-06-27T09:30:10+01:00</td><td><a href=\"practitioner-f001.html\">Practitioner/f001: E.M. van den broek</a> &quot;Eric VAN DEN BROEK&quot;</td></tr></table></blockquote></div>"
    },
    "contained": [
        {
            "resourceType": "CareTeam",
            "id": "careteam",
            "participant": [
                {
                    "member": {
                        "reference": "Practitioner/f001",
                        "display": "E.M. van den broek"
                    }
                }
            ]
        },
        {
            "resourceType": "Goal",
            "id": "goal",
            "lifecycleStatus": "completed",
            "achievementStatus": {
                "coding": [
                    {
                        "system": "http://terminology.hl7.org/CodeSystem/goal-achievement",
                        "code": "achieved",
                        "display": "Achieved"
                    }
                ],
                "text": "Achieved"
            },
            "description": {
                "text": "Retropharyngeal abscess removal"
            },
            "subject": {
                "reference": "Patient/f001",
                "display": "P. van de Heuvel"
            },
            "note": [
                {
                    "text": "goal accomplished without complications"
                }
            ]
        }
    ],
    "identifier": [
        {
            "use": "official",
            "system": "http://www.bmc.nl/zorgportal/identifiers/careplans",
            "value": "CP3953"
        }
    ],
    "status": "completed",
    "intent": "plan",
    "subject": {
        "reference": "Patient/f001",
        "display": "P. van de Heuvel"
    },
    "period": {
        "start": "2013-03-08T09:00:10+01:00",
        "end": "2013-03-08T09:30:10+01:00"
    },
    "careTeam": [
        {
            "reference": "#careteam"
        }
    ],
    "addresses": [
        {
            "reference": "Condition/f201",
            "display": "?????"
        }
    ],
    "goal": [
        {
            "reference": "#goal"
        }
    ],
    "activity": [
        {
            "detail": {
                "kind": "ServiceRequest",
                "code": {
                    "coding": [
                        {
                            "system": "http://snomed.info/sct",
                            "code": "172960003",
                            "display": "Incision of retropharyngeal abscess"
                        }
                    ]
                },
                "status": "completed",
                "doNotPerform": true,
                "scheduledString": "2011-06-27T09:30:10+01:00",
                "performer": [
                    {
                        "reference": "Practitioner/f001",
                        "display": "E.M. van den broek"
                    }
                ]
            }
        }
    ],
    "meta": {
        "tag": [
            {
                "system": "http://terminology.hl7.org/CodeSystem/v3-ActReason",
                "code": "HTEST",
                "display": "test health data"
            }
        ]
    }
}